{
   "resourceType":"Bundle",
   "meta":{
      "lastUpdated":"2023-11-02T14:37:09.940+08:00"
   },
   "identifier":{
      "system":"urn:ietf:rfc:3986",
      "value":"urn:uuid:c684db2c-3b10-451e-a181-96fb61c9bb65"
   },
   "type":"document",
   "timestamp":"2023-11-02T14:37:09.940+08:00",
   "entry":[
      {
         "resource":{
            "resourceType":"Composition",
            "id":"123",
            "status":"final",
            "type":{
               "text":"Hong Kong eHR Healthcare Document"
            },
            "subject":{
               "reference":"Patient/5eb787e3-b527-46d7-a4a6-a5c60ecd93cd"
            },
            "date":"2023-11-02T14:37:09+08:00",
            "author":[
               {
                  "reference":"Organization/HKG-EHR"
               }
            ],
            "title":"Medication Request"
         }
      },
      {
         "resource":{
            "resourceType":"Patient",
            "id":"5eb787e3-b527-46d7-a4a6-a5c60ecd93cd",
            "identifier":[
               {
                  "type":{
                     "coding":[
                        {
                           "system":"http://ehealth.gov.hk/FHIR/typeofID-ext",
                           "code":"EHRNO"
                        }
                     ]
                  },
                  "value":"370008751285"
               },
               {
                  "type":{
                     "coding":[
                        {
                           "system":"http://ehealth.gov.hk/FHIR/typeofID-ext",
                           "code":"OP"
                        }
                     ]
                  },
                  "value":"2023110100074"
               }
            ],
            "name":[
               {
                  "family":"CHAN",
                  "given":[
                     "TAI MAN"
                  ]
               }
            ],
            "gender":"male",
            "birthDate":"1980-01-02"
         }
      },
      {
         "resource":{
            "resourceType":"Organization",
            "id":"HKG-EHR",
            "active":true,
            "name":"HKG-EHR"
         }
      },
      {
         "resource":{
            "resourceType":"PractitionerRole",
            "id":"62bf8596e7f6f9fc419b307c7b5dce76",
            "extension":[
               {
                  "url":"1003854-PrescriberInstLocalName",
                  "valueString":"VHB2 Hospital - B"
               }
            ],
            "practitioner":{
               "display":"Happy Cheung"
            },
            "organization":{
               "identifier":{
                  "value":"8423602207"
               },
               "display":"VHB2 HOSPITAL - B"
            }
         }
      },
      {
         "resource":{
            "resourceType":"MedicationRequest",
            "extension":[
               {
                  "url":"1005323-DrugSequenceNumber",
                  "valueInteger":1
               },
               {
                  "url":"1005254-DoseValueSequenceNumber",
                  "valueInteger":0
               },
               {
                  "url":"1005259-Frequency",
                  "valueCodeableConcept":{
                     "coding":[
                        {
                           "system":"https://ehealth.gov.hk/hkmtt/",
                           "code":"7703152",
                           "display":"once daily"
                        }
                     ],
                     "text":"DAILY"
                  }
               },
               {
                  "url":"1005287-TreatmentStartDate",
                  "valueDate":"2023-04-18"
               }
            ],
            "identifier":[
               {
                  "value":"MOEVH 2300043531"
               }
            ],
            "status":"completed",
            "intent":"order",
            "medicationCodeableConcept":{
               "coding":[
                  {
                     "system":"https://ehealth.gov.hk/hkmtt/",
                     "code":"6080485",
                     "display":"sodium chloride 0.9 % topical irrigation solution (1 L)"
                  },
                  {
                     "system":"local",
                     "code":"SODI78",
                     "display":"SODIUM CHLORIDE 0.9% 1L (IRRIGATION)"
                  }
               ]
            },
            "subject":{
               "reference":"Patient/584039800354"
            },
            "authoredOn":"2023-04-18T16:11:55+08:00",
            "requester":{
               "reference":"PractitionerRole/147e8f4aa0740b35c3fb89bf6361745a"
            },
            "note":[
               {
                  "text":"[Dispense by Pharmacy]"
               }
            ],
            "dosageInstruction":[
               {
                  "sequence":0,
                  "text":"SODIUM CHLORIDE 0.9% irrigation solution 1l\nirrigation :  10 ml daily [both nostrils] for 8 weeks",
                  "asNeededBoolean":false,
                  "site":{
                     "coding":[
                        {
                           "system":"https://ehealth.gov.hk/hkmtt/",
                           "code":"8003600",
                           "display":"Anterior naris"
                        }
                     ],
                     "text":"BOTH NOSTRILS"
                  },
                  "route":{
                     "coding":[
                        {
                           "system":"https://ehealth.gov.hk/hkmtt/",
                           "code":"7700044",
                           "display":"nasal"
                        }
                     ],
                     "text":"NOSTRILS"
                  },
                  "doseAndRate":[
                     {
                        "doseQuantity":{
                           "extension":[
                              {
                                 "url":"1005258-DoseUnitLocalDesc",
                                 "valueString":"MILLILITRE(S)"
                              }
                           ],
                           "value":10,
                           "unit":"mL",
                           "system":"https://ehealth.gov.hk/hkmtt/",
                           "code":"7700387"
                        }
                     }
                  ]
               }
            ],
            "dispenseRequest":{
               "expectedSupplyDuration":{
                  "extension":[
                     {
                        "url":"1005279-DurationUnitLocalDesc",
                        "valueString":"Weeks"
                     }
                  ],
                  "value":8,
                  "unit":"week",
                  "system":"https://ehealth.gov.hk/hkmtt/",
                  "code":"7703286"
               }
            }
         }
      },
      {
         "resource":{
            "resourceType":"MedicationRequest",
            "extension":[
               {
                  "url":"1005323-DrugSequenceNumber",
                  "valueInteger":1
               },
               {
                  "url":"1005259-Frequency",
                  "valueCodeableConcept":{
                     "coding":[
                        {
                           "system":"https://ehealth.gov.hk/hkmtt/",
                           "code":"7703160",
                           "display":"three times daily"
                        }
                     ],
                     "text":"three times daily"
                  }
               }
            ],
            "identifier":[
               {
                  "value":"PR1900000089"
               }
            ],
            "status":"completed",
            "intent":"order",
            "medicationCodeableConcept":{
               "coding":[
                  {
                     "system":"https://ehealth.gov.hk/hkmtt/",
                     "code":"6027457",
                     "display":"Panadol (paracetamol) oral tablet 500 mg (HK-02280)"
                  },
                  {
                     "system":"local",
                     "code":"DR1700000120",
                     "display":"Panadol (paracetamol) 500 mg oral tablet"
                  }
               ]
            },
            "subject":{
               "reference":"Patient/5eb787e3-b527-46d7-a4a6-a5c60ecd93cd"
            },
            "authoredOn":"2023-03-13T16:55:00+08:00",
            "requester":{
               "reference":"PractitionerRole/62bf8596e7f6f9fc419b307c7b5dce76"
            },
            "dosageInstruction":[
               {
                  "text":"1 tablet three times daily oral for 1 Weeks, total 21 tablet",
                  "asNeededBoolean":false,
                  "route":{
                     "coding":[
                        {
                           "system":"https://ehealth.gov.hk/hkmtt/",
                           "code":"7700046",
                           "display":"oral"
                        }
                     ],
                     "text":"oral"
                  },
                  "doseAndRate":[
                     {
                        "doseQuantity":{
                           "extension":[
                              {
                                 "url":"1005258-DoseUnitLocalDesc",
                                 "valueString":"tablet"
                              }
                           ],
                           "value":1,
                           "unit":"tablet",
                           "system":"https://ehealth.gov.hk/hkmtt/",
                           "code":"7700245"
                        }
                     }
                  ]
               }
            ],
            "dispenseRequest":{
               "quantity":{
                  "extension":[
                     {
                        "url":"1005286-QuantityUnitLocalDesc",
                        "valueString":"tablet"
                     }
                  ],
                  "value":21,
                  "unit":"tablet",
                  "system":"https://ehealth.gov.hk/hkmtt/",
                  "code":"7700245"
               },
               "expectedSupplyDuration":{
                  "extension":[
                     {
                        "url":"1005279-DurationUnitLocalDesc",
                        "valueString":"Weeks"
                     }
                  ],
                  "value":1,
                  "unit":"week",
                  "system":"https://ehealth.gov.hk/hkmtt/",
                  "code":"7703286"
               }
            }
         }
      }
   ]
}